;from 0.336-1.24 microns albedo is taken from Dalton et al. 2009 for the saltiest environmental spectrum (350 ppt). Other wavelengths are from the standard ocean.alb file.
                                                                                                                                                                
       wl(um)  albedo
;
;
;
;
;
;
;
;
;
;
;
;
;
;
;
;
;
;  
;
;
;
;
      0.1000  1.0000E-03 ***fudged        
      0.336  0.135
      0.354  0.138
      0.366  0.140
      0.377  0.140
      0.390  0.136
      0.400  0.132
      0.414  0.128
      0.423  0.124
      0.431  0.119
      0.442  0.116
      0.457  0.114
      0.467  0.110
      0.482  0.116
      0.491  0.119
      0.504  0.118
      0.513  0.123
      0.515  0.132
      0.521  0.141
      0.525  0.149
      0.526  0.156
      0.528  0.165
      0.532  0.174
      0.535  0.183
      0.541  0.193
      0.544  0.201
      0.550  0.215
      0.554  0.224
      0.565  0.232
      0.571  0.242
      0.579  0.252
      0.589  0.263
      0.593  0.274
      0.598  0.283
      0.604  0.291
      0.617  0.296
      0.622  0.303
      0.637  0.298
      0.648  0.291
      0.656  0.299
      0.661  0.309
      0.662  0.321
      0.669  0.326
      0.674  0.334
      0.677  0.336
      0.688  0.330
      0.690  0.322
      0.694  0.314
      0.696  0.307
      0.696  0.301
      0.697  0.292
      0.699  0.283
      0.703  0.275
      0.704  0.266
      0.707  0.258
      0.707  0.250
      0.712  0.242
      0.714  0.232
      0.724  0.223
      0.729  0.217
      0.742  0.217
      0.755  0.221
      0.765  0.229
      0.777  0.236
      0.784  0.243
      0.797  0.244
      0.800  0.240
      0.803  0.233
      0.807  0.227
      0.809  0.219
      0.810  0.210
      0.816  0.204
      0.819  0.197
      0.822  0.191
      0.823  0.185
      0.832  0.178
      0.846  0.172
      0.854  0.166
      0.864  0.156
      0.877  0.149
      0.886  0.139
      0.895  0.131
      0.905  0.119
      0.910  0.114
      0.917  0.107
      0.924  0.096
      0.939  0.082
      0.942  0.080
      0.957  0.075
      0.981  0.075
      1.003  0.077
      1.022  0.082
      1.035  0.087
      1.047  0.092
      1.067  0.096
      1.085  0.092
      1.105  0.085
      1.126  0.079
      1.141  0.072
      1.166  0.069
      1.207  0.068
      1.233  0.069
      1.4000  6.7693E-02
      1.6000  6.6975E-02
      1.8000  6.6077E-02
      2.0000  6.5000E-02
      2.2000  6.3202E-02
      2.4000  6.0146E-02
      2.6000  5.3479E-02
      2.6500  4.9334E-02
      2.7000  4.3892E-02
      2.7500  4.0616E-02
      2.8000  4.5469E-02
      2.8500  5.9089E-02
      2.9000  8.0334E-02
      2.9500  9.4382E-02
      3.0000  9.9192E-02
      3.0500  1.0241E-01
      3.1000  1.0342E-01
      3.1500  1.0139E-01
      3.2000  9.8069E-02
      3.2500  9.4876E-02
      3.3000  9.1212E-02
      3.3500  8.7804E-02
      3.4000  8.5568E-02
      3.4500  8.3714E-02
      3.5000  8.1895E-02
      3.6000  7.9185E-02
      3.7000  7.7207E-02
      3.8000  7.5413E-02
      3.9000  7.4158E-02
      4.0000  7.3084E-02
      4.1000  7.2191E-02
      4.2000  7.1479E-02
      4.3000  7.0770E-02
      4.4000  7.0065E-02
      4.5000  6.9734E-02
      4.6000  6.9388E-02
      4.7000  6.9400E-02
      4.8000  6.9392E-02
      4.9000  6.9019E-02
      5.0000  6.8469E-02
      5.1000  6.7919E-02
      5.2000  6.7014E-02
      5.3000  6.6114E-02
      5.4000  6.4862E-02
      5.5000  6.3617E-02
      5.6000  6.2029E-02
      5.7000  5.9966E-02
      5.8000  5.7589E-02
      5.9000  5.6437E-02
      6.0000  6.2729E-02
      6.1000  7.3706E-02
      6.2000  7.7817E-02
      6.3000  7.5263E-02
      6.4000  7.3068E-02
      6.5000  7.1477E-02
      6.6000  7.0489E-02
      6.7000  6.9550E-02
      6.8000  6.8634E-02
      6.9000  6.8087E-02
      7.0000  6.7368E-02
      7.1000  6.6833E-02
      7.2000  6.6479E-02
      7.3000  6.5947E-02
      7.4000  6.5595E-02
      7.5000  6.5065E-02
      7.6000  6.4714E-02
      7.7000  6.4187E-02
      7.8000  6.3842E-02
      7.9000  6.3318E-02
      8.0000  6.2795E-02
      8.2000  6.1928E-02
      8.4000  6.1069E-02
      8.6000  6.0036E-02
      8.8000  5.9014E-02
      9.0000  5.7821E-02
      9.2000  5.6641E-02
      9.4000  5.5298E-02
      9.6000  5.3977E-02
      9.8000  5.2335E-02
     10.0000  5.0559E-02
     10.5000  4.5948E-02
     11.0000  4.4249E-02
     11.5000  4.8542E-02
     12.0000  5.9886E-02
     12.5000  7.4612E-02
     13.0000  8.6405E-02
     13.5000  9.6523E-02
     14.0000  1.0420E-01
     14.5000  1.0985E-01
     15.0000  1.1467E-01
     15.5000  1.1908E-01
     16.0000  1.2281E-01
     16.5000  1.2612E-01
     17.0000  1.2844E-01
     17.5000  1.3073E-01
     18.0000  1.3229E-01
     18.5000  1.3342E-01
     19.0000  1.3410E-01
     19.5000  1.3404E-01
     20.0000  1.3262E-01
     21.0000  1.3163E-01
     22.0000  1.3181E-01
     23.0000  1.3086E-01
     24.0000  1.3270E-01
     25.0000  1.3330E-01
     26.0000  1.3352E-01
     27.0000  1.3350E-01
     28.0000  1.3323E-01
     29.0000  1.3283E-01
     30.0000  1.3215E-01
     32.0000  1.3089E-01
     34.0000  1.3014E-01
     36.0000  1.3085E-01
     38.0000  1.3283E-01
     40.0000  1.3617E-01
     42.0000  1.4046E-01
     44.0000  1.4601E-01
     46.0000  1.5185E-01
     48.0000  1.5811E-01
     50.0000  1.6641E-01
     60.0000  1.9251E-01
     70.0000  2.0478E-01
     80.0000  2.0891E-01
     90.0000  2.1252E-01
    100.0000  2.1652E-01
    110.0000  2.1763E-01
    120.0000  2.2229E-01
    130.0000  2.2537E-01
    140.0000  2.2663E-01
    150.0000  2.2795E-01
    160.0000  2.2979E-01
    170.0000  2.3176E-01
    180.0000  2.3385E-01
    190.0000  2.3578E-01
    200.0000  2.3768E-01
